File: Cu.dat
# XDI/1.0 Hephaestus/0.9.26
# Element.edge:                  K
# Element.symbol:                Cu
# Column.1:                      energy eV
# Column.2:                      xmu
# Column.3:                      bkg
# Column.4:                      pre_edge
# Column.5:                      post_edge
# Column.6:                      der
# Column.7:                      sec
# Column.8:                      i0
# Column.9:                      chi(e)
# Athena.e0:                     8977.97
# Athena.eshift:                 0
# Athena.rbkg:                   1
# Athena.importance:             1
# Athena.standard:               None
# Athena.bkg_kweight:            2
# Athena.edge_step:              1.51123
# Athena.fixed_step:             no
# Athena.pre_edge_range:         -150.000 -30.000
# Athena.pre_edge_line:          4.168335 - 0.000381749 * E
# Athena.normalization_range:    100.000 1000.000
# Athena.post_edge_polynomial:   31.8597 - 0.00560643 * E + 2.57145e-07 * E^2 + 0 * E^3
# Athena.spline_range_energy:    0.000 1234.435
# Athena.clamps:                 0 24
# Athena.spline_range_k:         0.000 18.000
# Athena.kweight:                1
# Athena.window:                 hanning
# Athena.phase_correction:       no
# Athena.k_range:                3.000 17.000
# Athena.dk:                     1
# Athena.r_range:                1 3
# Athena.dr:                     0.0
# Athena.window:                 hanning
# Athena.plot_multiplier:        1
# Athena.y_offset:               0
# ///
#------------------------
#   e         xmu        bkg        pre_edge        post_edge        der        sec        i0        chie
  8774.1       0.838252       0.838252       0.818827        2.46457      -0.00189691   7.29556e-05    330343.00        0.0000000
  8794.14       0.814904       0.814904       0.811179        2.44275      -0.000435699   3.57996e-05    321906.00        0.0000000
  8814.18       0.805922       0.805922       0.803527        2.42114      -0.000460949  -2.09592e-08    317259.00        0.0000000
  8834.23       0.796928       0.796928       0.795872        2.39972      -0.000420633   1.00195e-06    315652.00        0.0000000
  8854.26       0.788349       0.788349       0.788229        2.37853      -0.000444314   1.5186e-07    313257.00        0.0000000
  8874.29       0.779827       0.779827       0.780583        2.35755      -0.000406131   9.61636e-07    310985.00        0.0000000
  8894.32       0.77169       0.77169       0.772934        2.33677      -0.000413415   2.91413e-07    305875.00        0.0000000
  8914.37       0.763666       0.763666       0.765281        2.31618      -0.000361901   2.8377e-06    305405.00        0.0000000
  8934.42       0.75678       0.75678       0.757626        2.29579      -0.000323786   2.95541e-05    304620.00        0.0000000
  8935.37       0.756748       0.756748       0.757265        2.29484      -8.17958e-05  -0.000330452    304120.00        0.0000000
  8936.35       0.756392       0.756392       0.756888        2.29384      -0.000651389   9.88366e-05    303984.00        0.0000000
  8937.3       0.756139       0.756139       0.756527        2.29288       0.000232367   0.000114259    303854.00        0.0000000
  8938.29       0.755992       0.755992       0.75615        2.29188      -0.000727486  -0.000321444    303577.00        0.0000000
  8939.23       0.755576       0.755576       0.755789        2.29093      -0.000251226   0.000113585    303353.00        0.0000000
  8940.27       0.755243       0.755243       0.755395        2.28989      -0.00015407   0.000208821    302505.00        0.0000000
  8941.17       0.755122       0.755122       0.75505        2.28898      -0.00046623  -0.000217505    300996.00        0.0000000
  8942.2       0.754753       0.754753       0.754656        2.28794      -3.11716e-05   0.000150251    299332.00        0.0000000
  8943.15       0.754549       0.754549       0.754295        2.28698      -0.000350133   0.000135455    301674.00        0.0000000
  8944.09       0.754465       0.754465       0.753933        2.28603      -0.000240364  -9.5672e-05    303752.00        0.0000000
  8945.04       0.754297       0.754297       0.753572        2.28508      -0.000348101  -0.000181522    303773.00        0.0000000
  8946.03       0.75395       0.75395       0.753194        2.28408      -2.03502e-05   0.00015188    303572.00        0.0000000
  8946.98       0.75376       0.75376       0.752832        2.28313      -4.03559e-05   8.03194e-05    303438.00        0.0000000
  8947.97       0.753637       0.753637       0.752454        2.28213      -0.00018674   0.000253658    303201.00        0.0000000
  8948.92       0.753758       0.753758       0.752092        2.28118       9.00529e-05  -0.000266668    303040.00        0.0000000
  8949.87       0.753639       0.753639       0.75173        2.28023      -0.000394075  -0.000200291    302834.00        0.0000000
  8950.86       0.753318       0.753318       0.751352        2.27924      -3.32704e-05   0.000229808    302603.00        0.0000000
  8951.81       0.753218       0.753218       0.750989        2.27828      -0.000255465   0.000387709    302562.00        0.0000000
  8952.8       0.753478       0.753478       0.750611        2.27729       7.37868e-05  -0.000293933    302460.00        0.0000000
  8953.75       0.753449       0.753449       0.750248        2.27634       8.57782e-05  -0.000223224    302256.00        0.0000000
  8954.74       0.75321       0.75321       0.74987        2.27535      -5.45821e-05   0.000389652    302054.00        0.0000000
  8955.69       0.753347       0.753347       0.749507        2.2744       0.000344931  -8.54944e-05    301849.00        0.0000000
  8956.64       0.753406       0.753406       0.749145        2.27344       0.000101393  -2.53675e-05    301729.00        0.0000000
  8957.63       0.753444       0.753444       0.748766        2.27245       1.26037e-05   0.000242411    301649.00        0.0000000
  8958.58       0.753699       0.753699       0.748403        2.2715      -9.26128e-07   6.79423e-05    301439.00        0.0000000
  8959.53       0.754015       0.754015       0.74804        2.27055       0.000395771   3.36479e-05    301292.00        0.0000000
  8960.52       0.754379       0.754379       0.747661        2.26956       0.00065994   0.000656492    301072.00        0.0000000
  8961.48       0.755321       0.755321       0.747298        2.26861       0.000302519  -0.00105967    300962.00        0.0000000
  8962.47       0.755304       0.755304       0.746919        2.26762       0.000431387   0.000492222    300772.00        0.0000000
  8963.42       0.755754       0.755754       0.746556        2.26667       0.000732046   0.000595646    300605.00        0.0000000
  8964.37       0.756744       0.756744       0.746193        2.26573       0.00117451  -0.00025576    300440.00        0.0000000
  8965.36       0.757525       0.757525       0.745813        2.26474       0.00112313   0.000296511    300229.00        0.0000000
  8966.32       0.758542       0.758542       0.74545        2.26379       0.000983827   0.000504226    300148.00        0.0000000
  8967.27       0.760017       0.760017       0.745086        2.26284       0.00204652   0.000759748    300003.00        0.0000000
  8968.26       0.762309       0.762309       0.744706        2.26185       0.00152734  -0.0003356    299787.00        0.0000000
  8969.22       0.764197       0.764197       0.744343        2.26091       0.00306946   0.00113635    299658.00        0.0000000
  8970.17       0.767119       0.767119       0.743979        2.25996       0.00321749   0.00170799    299234.00        0.0000000
  8971.17       0.77186       0.77186       0.743599        2.25897       0.00494026   1.04738e-05    298739.00        0.0000000
  8972.12       0.776411       0.776411       0.743235        2.25802       0.00620583   0.00382931    297804.00        0.0000000
  8973.07       0.784439       0.784439       0.742872        2.25708       0.0110333   0.00405601    294972.00        0.0000000
  8974.07       0.79687       0.79687       0.742491        2.25609       0.0171412   0.0128523    294169.00        0.0000000
  8975.02       0.820425       0.820425       0.742127        2.25515       0.0277874   0.0123554    297571.00        0.0000000
  8975.98       0.855286       0.855286       0.741763        2.2542       0.0774445   0.120189        299011.00        0.0000000
  8977.02        1.01237        1.01237       0.741366        2.25317       0.22233       0.123722        298949.00        0.0000000
  8977.97        1.27934       0.906453       0.741001        2.25223       0.247334      -0.132411        298618.00       0.246743
  8978.88        1.42438        1.22404       0.740654        2.25133       0.0883815  -0.133759        298349.00       0.13257
  8979.84        1.45456        1.35342       0.740289        2.25038      -0.00947932  -0.0543739    298117.00       0.0669257
  8980.83        1.42962        1.47464       0.739908        2.2494      -0.0224647   0.0221106    297898.00      -0.0297957
  8981.79        1.42502        1.57799       0.739543        2.24845       0.0234411   0.0486816    297751.00      -0.101223
  8982.74        1.46483        1.6697       0.739179        2.24751       0.0646863   0.0264654    297554.00      -0.135566
  8983.7        1.52877        1.75047       0.738814        2.24657       0.0573367  -0.0144795    297285.00      -0.146704
  8984.7        1.58121        1.82405       0.738433        2.24558       0.0640231   0.016526    297118.00      -0.160691
  8985.65        1.64649        1.88474       0.738068        2.24464       0.0675819   0.014435    296947.00      -0.157653
  8986.61        1.72497        1.93666       0.737703        2.2437       0.10907       0.0460626    296770.00      -0.140081
  8987.57        1.84567        1.98057       0.737338        2.24276       0.120181       0.00770549    296601.00      -0.089266
  8988.57        1.97937        2.01857       0.736956        2.24178       0.126103      -0.0343171    296403.00      -0.0259429
  8989.52        2.07605        2.04822       0.736591        2.24083       0.113025       0.0225553    296193.00       0.0184154
  8990.48        2.19338        2.07198       0.736226        2.23989       0.101486      -0.0444843    296005.00       0.080337
  8991.44        2.27006        2.09059       0.73586        2.23895       0.0454333  -0.0696159    295704.00       0.11876
  8992.48        2.27773        2.10581       0.735462        2.23793      -0.0166708  -0.0438054    295485.00       0.113768
  8993.4        2.24783        2.11554       0.735112        2.23703      -0.0451128  -0.0186929    295348.00       0.0875388
  8994.35        2.19937        2.12283       0.734747        2.23609      -0.0478392   0.0018467    294977.00       0.0506469
  8995.31        2.1526        2.12786       0.734381        2.23515      -0.0430292   0.0236406    294255.00       0.0163728
  8996.27        2.12753        2.13135       0.734015        2.23421      -0.0170093   0.0215439    293609.00      -0.00252512
  8997.27        2.12292        2.13413       0.733633        2.23323       0.0117301   0.0337267    293420.00      -0.00741525
  8998.23        2.14952        2.13658       0.733267        2.23229       0.0465041   0.0430198    293350.00       0.00856279
  8999.19        2.21569        2.13895       0.732901        2.23135       0.0631569  -0.0200234    293339.00       0.050777
  9000.15        2.26344        2.14124       0.732535        2.23042       0.0537742  -0.0077477    293608.00       0.0808605
  9001.11        2.30406        2.14344       0.732169        2.22948       0.0178383  -0.0552056    293924.00       0.106283
  9002.15        2.29299        2.14576       0.731769        2.22846      -0.0264965  -0.0271327    293806.00       0.0974203
  9003.07        2.25834        2.14771       0.731419        2.22756      -0.0411781  -0.0052981    293608.00       0.073206
  9004.03        2.21716        2.14968       0.731053        2.22662      -0.052257  -0.00537686    293513.00       0.0446514
  9004.99        2.17101        2.15157       0.730686        2.22569      -0.0371402   0.0129939    293367.00       0.0128687
  9005.95        2.13686        2.15338       0.73032        2.22475      -0.0316618   0.00855092    293201.00      -0.0109316
  9006.91        2.11056        2.15512       0.729953        2.22382      -0.0288681  -0.00244801    293026.00      -0.0294872
  9007.87        2.08203        2.15679       0.729587        2.22288      -0.0269047   0.00805384    292789.00      -0.0494679
  9008.92        2.05971        2.15853       0.729186        2.22186      -0.0136199   0.0144814    292413.00      -0.0653877
  9009.84        2.05295        2.15998       0.728836        2.22097      -0.00139884   0.0144988    292259.00      -0.0708199
  9011.45        2.06254        2.16238       0.728219        2.2194       0.00817875   0.00258547    292275.00      -0.0660637
  9013.64        2.08787        2.16533       0.727384        2.21727       0.0164574   0.00441876    292245.00      -0.0512541
  9015.92        2.13709        2.16804       0.726516        2.21506       0.025462   0.00112462    291980.00      -0.0204799
  9018.32        2.19542        2.17053       0.725597        2.21273       0.0251459   0.000767227    290705.00       0.0164675
  9020.77        2.25942        2.17269       0.724661        2.21036       0.0217326  -0.0043887    285936.00       0.0573857
  9023.27        2.2972        2.17452       0.723708        2.20795       0.00427794  -0.0102068    285518.00       0.0811767
  9025.9        2.2676        2.17607       0.722704        2.20541      -0.0234856  -0.00564964    284569.00       0.0605696
  9028.58        2.19767        2.17727       0.721682        2.20283      -0.0264978   0.000823987    284230.00       0.0135022
  9031.34        2.13164        2.17813       0.720626        2.20017      -0.0167608   0.00465129    286937.00      -0.030767
  9034.15        2.10125        2.17866       0.719553        2.19746      -0.00433702   0.00458461    284668.00      -0.0512264
  9037.1        2.10797        2.17886       0.718429        2.19464       0.00659262   0.00159277    287032.00      -0.0469131
  9040.09        2.12903        2.17874       0.717287        2.19177       0.0032834  -0.00304564    287215.00      -0.0328927
  9043.13        2.12276        2.17831       0.716128        2.18887      -0.0023853   0.00129261    286664.00      -0.0367582
  9046.3        2.1292        2.17757       0.714918        2.18584       0.00777983   0.00206379    286222.00      -0.0320088
  9049.51        2.15651        2.17658       0.713689        2.18278       0.00341704  -0.00262649    285703.00      -0.0132823
  9052.78        2.15624        2.17536       0.712444        2.17967       0.00133139   0.00181318    285203.00      -0.0126534
  9056.18        2.17635        2.17392       0.711146        2.17644       0.00967951   0.0009084    284632.00       0.00160707
  9059.62        2.20751        2.17231       0.709831        2.17318       0.00639919  -0.000956663    284104.00       0.0232941
  9063.11        2.22758        2.17054       0.708498        2.16987       0.00686622   0.000931531    283581.00       0.0377408
  9066.74        2.26053        2.16856       0.707113        2.16645       0.0104625  -0.00034106    282975.00       0.0608545
  9070.42        2.28936        2.16642       0.70571        2.16298       0.00158883  -0.00365554    282291.00       0.0813507
  9074.14        2.26794        2.16411       0.704288        2.15948      -0.0141701  -0.00349204    281785.00       0.0687039
  9078        2.19495        2.16158       0.702816        2.15586      -0.0177662   0.0010957    280969.00       0.0220804
  9081.9        2.13756        2.15888       0.701325        2.1522      -0.0120629   0.00170022    280435.00      -0.0141061
  9085.86        2.10604        2.15602       0.699815        2.1485      -0.00405156   0.000394845    279826.00      -0.0330726
  9089.91        2.08025        2.15298       0.69827        2.14473      -0.0120592  -0.00187367    279235.00      -0.0481212
  9094.05        2.02212        2.14974       0.696689        2.14088      -0.01044   0.00264224    278504.00      -0.0844506
  9098.28        2.009        2.14632       0.695073        2.13695       0.00421601   0.0028142    277454.00      -0.0908656
  9102.56        2.04675        2.14275       0.693439        2.13298       0.0120689   0.000973283    276886.00      -0.0635229
  9106.89        2.10316        2.13904       0.691786        2.12898       0.0110616  -0.00124399    276268.00      -0.0237402
  9111.36        2.1368        2.13512       0.69008        2.12486       0.00239821  -0.00211711    275314.00       0.00110601
  9115.88        2.12804        2.13109       0.688355        2.12071      -0.00288821   0.000625459    268698.00      -0.00201585
  9120.44        2.13223        2.12694       0.686612        2.11652       0.00979037   0.00404328    275636.00       0.00349966
  9125.1        2.22345        2.12265       0.684833        2.11226       0.0216294  -0.00110635    274653.00       0.066704
  9129.86        2.29152        2.11823       0.683017        2.10792       0.00329616  -0.00396322    273953.00       0.114672
  9134.67        2.27052        2.11374       0.681182        2.10354      -0.00736705  -0.000974447    273149.00       0.103746
  9139.57        2.22592        2.10914       0.679311        2.0991      -0.0121354  -0.00166218    271366.00       0.0772703
  9144.52        2.14011        2.10451       0.677421        2.09462      -0.0205281  -0.000803457    250906.00       0.0235602
  9149.57        2.03237        2.09981       0.675494        2.09006      -0.0219551   0.000449015    271551.00      -0.0446263
  9154.71        1.93434        2.09506       0.67353        2.08543      -0.0123988   0.00310125    271015.00      -0.106351
  9159.91        1.91825        2.09032       0.671547        2.08078       0.00750981   0.00348958    270353.00      -0.11386
  9165.15        1.99798        2.08558       0.669544        2.07609       0.0183373   0.00027772    269592.00      -0.0579634
  9170.54        2.08781        2.08075       0.667487        2.07128       0.0113404  -0.0020746    268800.00       0.00466891
  9175.94        2.11738        2.07597       0.665428        2.06649      -0.000395257  -0.00178636    268118.00       0.0274043
  9181.47        2.09345        2.07109       0.663314        2.06158      -0.00461175   0.000251407    267311.00       0.0147943
  9187.02        2.07722        2.06625       0.661197        2.05669      -0.00205919  -0.000141059    266479.00       0.00725731
  9192.7        2.05608        2.06132       0.659026        2.05168      -0.00476636   0.000539958    265649.00      -0.00346462
  9198.49        2.05235        2.05632       0.656818        2.0466       0.00701065   0.00235641    264661.00      -0.00262728
  9204.28        2.12767        2.05135       0.654606        2.04154       0.0120058  -0.00128828    259818.00       0.0505047
  9210.13        2.15967        2.04635       0.652374        2.03645       3.63534e-05  -0.00145024    264564.00       0.0749861
  9216.08        2.14097        2.04127       0.650104        2.03128      -0.00652461  -0.00124764    263848.00       0.0659677
  9222.12        2.07673        2.03613       0.647796        2.02605      -0.0134908  -0.000509063    263158.00       0.0268693
  9228.27        1.99236        2.0309       0.64545        2.02076      -0.0115689   0.000958904    262441.00      -0.0255006
  9234.47        1.94354        2.02562       0.643084        2.01543      -0.00419709   0.00125181    261655.00      -0.0543105
  9240.72        1.94322        2.02028       0.640696        2.01008       0.00289102   0.000415614    259337.00      -0.0509917
  9247.08        1.95966        2.01484       0.638271        2.00466       0.000856058  -0.000313903    260159.00      -0.0365123
  9253.44        1.96342        2.00937       0.635841        1.99926       0.000800998   6.73279e-05    257514.00      -0.0304013
  9259.95        1.97009        2.00374       0.633355        1.99375       0.0021769   0.000367474    258662.00      -0.0222659
  9266.52        1.99264        1.99802       0.630848        1.98822       0.00335537  -0.000175122    257866.00      -0.00355531
  9273.14        2.00777        1.9922       0.62832        1.98266       0.00130603  -0.000257195    256977.00       0.0102997
  9279.87        2.0115        1.98624       0.625752        1.97704       0.00046167   5.76298e-05    256084.00       0.0167153
  9286.7        2.01794        1.98011       0.623145        1.97136       0.00123593   5.47882e-05    255090.00       0.0250283
  9293.53        2.02694        1.9739       0.620535        1.96569       0.000380271  -0.000528243    253489.00       0.035097
  9300.48        2.01065        1.96753       0.617884        1.95996      -0.00479582  -0.000452685    253708.00       0.0285298
  9307.52        1.9718        1.961       0.615194        1.95418      -0.00578473   2.00033e-05    252992.00       0.00714539
  9314.63        1.93364        1.95436       0.612482        1.94837      -0.00364123   0.00058888    249804.00      -0.0137155
  9321.79        1.92534        1.94762       0.609748        1.94254       0.000641703   0.000200905    248241.00      -0.0147447
  9329.06        1.92746        1.94075       0.606974        1.93665      -0.00171974  -0.000572964    250513.00      -0.0087918
  9336.38        1.89907        1.93379       0.604177        1.93074      -0.00480225   0.000162337    249739.00      -0.0229737
  9343.86        1.87904        1.92666       0.601322        1.92473       0.000779976   0.000573012    248965.00      -0.0315098
  9351.31        1.89084        1.91956       0.59848        1.91878       0.000620353  -0.000112701    247308.00      -0.0190059
  9358.86        1.89638        1.91236       0.595598        1.91278       0.0011447   2.222e-05    247490.00      -0.010575
  9366.51        1.90329        1.90507       0.592675        1.90672       0.000763854  -1.80255e-05    246965.00      -0.00118202
  9374.19        1.90913        1.8978       0.589746        1.90068       0.000669284  -3.46465e-05    246119.00       0.00749972
  9382.01        1.91302        1.89042       0.586759        1.89455       0.000294131  -5.68164e-05    245417.00       0.0149536
  9389.85        1.91342        1.88308       0.583766        1.88844      -9.78599e-05  -5.30579e-05    244587.00       0.0200768
  9397.8        1.91049        1.8757       0.580732        1.88228      -0.00113166  -0.000227534    243684.00       0.0230248
  9405.81        1.89296        1.86834       0.577674        1.8761      -0.00322662  -0.000205635    242862.00       0.0162919
  9413.93        1.86174        1.86099       0.574575        1.86987      -0.00337827   0.000221113    241882.00       0.000497848
  9422.06        1.84507        1.85373       0.57147        1.86367      -0.000789918   0.000254275    241060.00      -0.00572884
  9430.3        1.84534        1.8465       0.568323        1.85742       0.000306998  -1.85684e-05    239935.00      -0.000765936
  9438.66        1.84432        1.83931       0.565134        1.85111      -0.00077015  -0.000174492    238756.00       0.00331519
  9447.03        1.83109        1.83228       0.561939        1.84483      -0.0023525  -7.27341e-05    237559.00      -0.000786007
  9455.51        1.81249        1.82534       0.558701        1.83851      -0.00112338   0.000210956    236929.00      -0.00850237
  9464.06        1.80913        1.81854       0.555438        1.83217      -0.000672155  -7.04518e-05    236221.00      -0.00622569
  9472.71        1.80052        1.81187       0.552133        1.82579      -0.000647543   9.94627e-05    235623.00      -0.00750984
  9481.39        1.79936        1.80538       0.548822        1.81944       0.000352185   9.22357e-05    234692.00      -0.00398248
  9490.17        1.80531        1.79901       0.545467        1.81304       0.000747574   1.32813e-05    233744.00       0.00417027
  9499.03        1.81233        1.79277       0.542088        1.80664       0.00078723  -3.0698e-05    232948.00       0.0129441
  9508        1.81698        1.78664       0.538665        1.80019      -0.000172763  -0.000178891    232046.00       0.0200788
  9517.03        1.80724        1.78063       0.535216        1.79374      -0.00202515  -0.000203864    231131.00       0.0176067
  9526.08        1.7808        1.77478       0.531761        1.78732      -0.00294123   0.000103114    230060.00       0.00398068
  9535.25        1.76262        1.76901       0.528261        1.78085      -0.00122363   0.000122706    228964.00      -0.00422564
  9544.48        1.75477        1.76334       0.524736        1.77439      -0.000680528   3.48378e-05    227884.00      -0.00567037
  9553.83        1.74984        1.75773       0.521166        1.76789      -0.000408342  -2.70866e-06    226925.00      -0.00522028
  9563.15        1.74469        1.75226       0.517608        1.76145      -0.000760053  -2.47512e-05    225062.00      -0.00500905
  9572.64        1.73723        1.74681       0.513986        1.75494      -0.000735599  -1.74331e-05    224752.00      -0.00634197
  9582.25        1.72808        1.7414       0.510319        1.7484      -0.00120957   5.22913e-06    223173.00      -0.0088121
  9591.82        1.71944        1.73609       0.506663        1.74193      -0.000528932   5.36551e-05    220538.00      -0.0110191
  9601.47        1.71575        1.73082       0.502981        1.73546      -0.000176122   1.83422e-05    219525.00      -0.00997616
  9611.28        1.71374        1.72553       0.499235        1.72892      -0.000332764  -7.34966e-06    222081.00      -0.00780176
  9621.12        1.71101        1.72027       0.49548        1.72242      -0.000126035   1.43962e-05    221687.00      -0.00612615
  9631.02        1.70968        1.71501       0.491699        1.71593      -0.000451429  -5.98388e-05    221353.00      -0.00352927
  9641.05        1.70235        1.70971       0.487871        1.7094      -0.00083743  -1.21723e-05    220916.00      -0.00487221
  9651.1        1.69378        1.70441       0.484034        1.70291       0.000174215   0.000297006    220488.00      -0.00703459
  9661.27        1.71579        1.69903       0.480152        1.6964       0.00170479  -0.000259174    220096.00       0.0110923
  9671.46        1.71109        1.69361       0.476261        1.68993      -0.00164636  -7.73372e-05    219600.00       0.011564
  9681.78        1.69815        1.68809       0.472323        1.68343      -0.000505504   5.26526e-05    219197.00       0.00665574
  9692.17        1.69076        1.68248       0.468357        1.67694      -0.000978688  -1.22002e-05    217416.00       0.00547999
  9702.68        1.68195        1.67676       0.464343        1.67043      -0.000423737   2.44204e-05    217551.00       0.00343393
  9713.17        1.67584        1.671       0.46034        1.664      -0.000997663  -2.48529e-05    217188.00       0.00319942
  9723.78        1.66686        1.66513       0.456289        1.65754      -0.000559073   2.40977e-05    216391.00       0.00114431
  9734.47        1.66056        1.65917       0.45221        1.6511      -0.000604661   1.23021e-05    215473.00       0.000917553
  9745.28        1.65561        1.65309       0.448082        1.64464      -3.23932e-05   3.16185e-05    212430.00       0.00166806
  9756.07        1.65435        1.64697       0.443964        1.63826      -0.000766939  -8.27408e-05    214442.00       0.00488233
  9766.98        1.64322        1.64072       0.439798        1.63186      -0.000807902   4.52299e-05    213544.00       0.00165497
  9778.02        1.63743        1.63435       0.435582        1.62545      -0.000514582  -1.49682e-05    210582.00       0.00203641
  9789.04        1.62982        1.62794       0.431377        1.61912      -0.000603897   1.88702e-05    211737.00       0.00124738
  9800.18        1.62447        1.62139       0.427123        1.61278      -0.00050133  -8.70017e-06    210581.00       0.00203569
  9811.4        1.61799        1.61474       0.422839        1.60645      -0.000809299  -3.9862e-05    209952.00       0.00214709
  9822.65        1.60645        1.60802       0.418545        1.60018      -0.00104465   8.74096e-06    209643.00      -0.00103611
  9834.08        1.59586        1.60112       0.41418        1.59387      -0.000790848   2.54859e-05    206216.00      -0.0034825
  9845.49        1.58864        1.59418       0.409826        1.58765      -0.000595667   1.02071e-06    207699.00      -0.00367069
  9857.03        1.58146        1.5871       0.405421        1.58141      -0.000572757   3.96008e-06    204882.00      -0.00373006
  9868.6        1.5748        1.57993       0.401005        1.57524      -0.000521696   7.74122e-06    206709.00      -0.0033966
  9880.3        1.56911        1.57262       0.396539        1.56906      -0.000567289  -9.22044e-06    206027.00      -0.00231831
  9892.02        1.56215        1.56522       0.392061        1.56293      -0.000619466  -4.04231e-06    205522.00      -0.00203082
  9903.89        1.55453        1.55766       0.387532        1.55681      -0.000602229   6.80127e-06    204839.00      -0.00206836
  9915.78        1.54786        1.55002       0.382993        1.55075      -0.000511652   4.44395e-06    204319.00      -0.00142354
  9927.75        1.54178        1.54225       0.378422        1.54472      -0.000578836  -1.14639e-05    203851.00      -0.000307393
  9939.81        1.53399        1.53436       0.373818        1.53872      -0.000654379  -2.6777e-06    203447.00      -0.000243569
  9951.95        1.52576        1.52638       0.369184        1.53275      -0.000625125   1.28071e-05    202850.00      -0.000412115
  9964.18        1.51938        1.51833       0.364517        1.52682      -0.000552925  -9.20449e-06    202076.00       0.000694665
  9976.43        1.5116        1.51026       0.359838        1.52095      -0.000663149  -7.25276e-06    200973.00       0.000885978
  9988.83        1.50263        1.50214       0.355107        1.5151      -0.000730741   6.13182e-06    200791.00       0.000325291
  10001.250        1.49458        1.49405       0.350365        1.50931      -0.000646453  -2.08325e-06    199480.00       0.000350794
  10013.760        1.48615        1.48599       0.345589        1.50356      -0.000629826   7.93138e-06    198831.00       0.000106428
  10026.360        1.47892        1.47798       0.340779        1.49785      -0.000577266  -1.23291e-06    198009.00       0.00062189
  10038.990        1.47148        1.47009       0.335958        1.4922      -0.000570153   4.75767e-06    197360.00       0.000917433
  10051.770        1.46472        1.46228       0.331079        1.48658      -0.000530001   2.78321e-06    196693.00       0.00161634
  10064.570        1.45841        1.45465       0.326193        1.48103      -0.000462891  -2.60636e-06    195765.00       0.00248688
  10077.460        1.45162        1.4472       0.321272        1.47552      -0.000558335  -5.80138e-06    194475.00       0.00292747
  10090.450        1.44381        1.43995       0.316313        1.47006      -0.000612198   2.94315e-06    193232.00       0.00255306
  10103.460        1.43648        1.43298       0.311346        1.46468      -0.000579313  -5.99864e-07    191308.00       0.00231654
  10116.630        1.42896        1.42625       0.306319        1.45932      -0.000589635  -3.9189e-06    192137.00       0.00179309
  10129.820        1.42074        1.41987       0.301283        1.45405      -0.000553059   5.87325e-06    191385.00       0.000580316
  10143.050        1.41353        1.41386       0.296233        1.44884      -0.000566516   1.30348e-06    190285.00      -0.000216134
  10156.430        1.40647        1.40821       0.291125        1.44367      -0.000528872  -8.79042e-07    189501.00      -0.00115276
  10169.850        1.39923        1.40302       0.286002        1.43857      -0.000540282  -1.56932e-06    188320.00      -0.00250588
  10183.350        1.39166        1.39829       0.280848        1.43354      -0.000550603   8.01634e-07    187298.00      -0.00438867
  10196.950        1.38418        1.39408       0.275657        1.42857      -0.000548306   1.7045e-06    186174.00      -0.00654767
  10210.590        1.377        1.39043       0.27045        1.42368      -0.000537529   1.34058e-06    185099.00      -0.00888842
  10224.320        1.37002        1.37002       0.265208        1.41885      -0.000492065   3.5917e-07    183493.00        0.0000000
  10238.200        1.36303        1.36303       0.259909        1.41406      -0.000477557  -9.42254e-07    183513.00        0.0000000
  10252.010        1.3559        1.3559       0.254637        1.4094      -0.000551982   2.01443e-06    182209.00        0.0000000
  10266.030        1.34905        1.34905       0.249285        1.40477      -0.000499536  -2.28953e-06    181648.00        0.0000000
  10280.080        1.34174        1.34174       0.243922        1.40023      -0.000525397  -2.02578e-06    180294.00        0.0000000
  10294.120        1.33404        1.33404       0.238562        1.3958      -0.000495588   2.98026e-06    179787.00        0.0000000
  10308.370        1.32682        1.32682       0.233122        1.3914      -0.000542008  -1.28981e-06    178170.00        0.0000000
  10322.660        1.31932        1.31932       0.227667        1.3871      -0.000522099   1.13331e-06    178182.00        0.0000000
  10336.980        1.31204        1.31204       0.2222        1.38289      -0.000542298  -3.55839e-06    177450.00        0.0000000
  10351.350        1.30399        1.30399       0.216715        1.37877      -0.000508994   3.57258e-06    177052.00        0.0000000
  10365.880        1.2966        1.2966       0.211168        1.37471      -0.000506791   4.69695e-07    176447.00        0.0000000
  10380.450        1.28929        1.28929       0.205606        1.37076      -0.000507796   5.11397e-07    175946.00        0.0000000
  10395.060        1.28207        1.28207       0.200028        1.3669      -0.00050516  -2.25422e-07    175509.00        0.0000000
  10409.770        1.27475        1.27475       0.194413        1.36312      -0.000485584  -1.06327e-07    175052.00        0.0000000
  10424.580        1.26736        1.26736       0.188759        1.35944      -0.000479088   1.45238e-06    173262.00        0.0000000
  10439.500        1.26024        1.26024       0.183063        1.35584      -0.000494579  -6.57673e-07    173199.00        0.0000000
  10454.400        1.25297        1.25297       0.177375        1.35235      -0.000483809   5.9578e-07    173171.00        0.0000000
  10469.520        1.24574        1.24574       0.171603        1.34894      -0.000475085   3.9131e-07    172378.00        0.0000000
  10484.560        1.23863        1.23863       0.165862        1.34566      -0.000506366  -3.6343e-06    172610.00        0.0000000
  10499.710        1.23064        1.23064       0.160078        1.34247      -0.00047949   2.73836e-06    172287.00        0.0000000
  10514.970        1.22323        1.22323       0.154253        1.33938      -0.000503385  -9.22117e-07    171864.00        0.0000000
  10530.330        1.21555        1.21555       0.148389        1.33638      -0.000478805   2.46411e-06    171008.00        0.0000000
  10545.730        1.20843        1.20843       0.14251        1.33351      -0.000498904  -1.97287e-06    170482.00        0.0000000
  10561.240        1.2008        1.2008       0.136589        1.33073      -0.000470963   1.11339e-06    169763.00        0.0000000
  10576.800        1.1934        1.1934       0.130649        1.32807      -0.000484255  -9.94884e-07    168750.00        0.0000000
  10592.410        1.18574        1.18574       0.12469        1.32553      -0.000467164   1.95817e-06    167996.00        0.0000000
  10608.120        1.17852        1.17852       0.118693        1.3231      -0.000473756  -1.15323e-06    167066.00        0.0000000
  10623.940        1.17095        1.17095       0.112653        1.32078      -0.000492717  -1.73718e-07    166265.00        0.0000000
  10639.810        1.16332        1.16332       0.106595        1.31858      -0.000465184   1.79422e-06    165273.00        0.0000000
  10655.730        1.15612        1.15612       0.100518        1.3165      -0.000453631  -2.52239e-06    163550.00        0.0000000
  10671.760        1.14822        1.14822       0.0943982    1.31455      -0.000463136   2.84685e-06    162238.00        0.0000000
  10687.840        1.14103        1.14103       0.0882597    1.31271      -0.00048413   1.52667e-07    161777.00        0.0000000
  10704.090        1.13381        1.13381       0.0820563    1.311      -0.000448929  -2.73046e-06    160283.00        0.0000000
  10720.260        1.1259        1.1259       0.0758834    1.30943      -0.000477507   1.7436e-06    158728.00        0.0000000
  10736.620        1.11837        1.11837       0.069638    1.30797      -0.000433455   9.4116e-07    157479.00        0.0000000
  10752.960        1.1111        1.1111       0.0634002    1.30666      -0.000469279  -1.15907e-06    155773.00        0.0000000
  10769.470        1.10344        1.10344       0.0570975    1.30547      -0.000462276   4.0513e-07    154400.00        0.0000000
  10786.040        1.09586        1.09586       0.0507719    1.30441      -0.000449146   1.33795e-06    152890.00        0.0000000
  10802.660        1.08862        1.08862       0.0444272    1.3035      -0.000434025  -1.06939e-06    150490.00        0.0000000
  10819.330        1.08107        1.08107       0.0380635    1.30272      -0.000459197   9.42618e-07    150074.00        0.0000000
  10836.120        1.07373        1.07373       0.0316539    1.30209      -0.000421594  -5.93664e-07    148350.00        0.0000000
  10852.960        1.0662        1.0662       0.0252252    1.3016      -0.000437732   8.20307e-07    146990.00        0.0000000
  10869.920        1.05885        1.05885       0.0187508    1.30125      -0.000449397   3.15137e-07    146003.00        0.0000000
  10887.000        1.05154        1.05154       0.0122305    1.30105      -0.000415986  -2.1484e-07    144805.00        0.0000000
  10904.000        1.0442        1.0442       0.00574076    1.301      -0.000446495   3.88463e-07    143678.00        0.0000000
  10921.190        1.03689        1.03689      -0.000821514    1.3011      -0.000416705  -2.66277e-07    142271.00        0.0000000
  10938.430        1.02948        1.02948      -0.00740287    1.30135      -0.000420243  -7.24916e-08    141613.00        0.0000000
  10955.790        1.022        1.022      -0.01403    1.30176      -0.000425724   1.25957e-06    140691.00        0.0000000
  10973.140        1.0149        1.0149      -0.0206534    1.30232      -0.00039828   8.3846e-08    139936.00        0.0000000
  10990.550        1.00781        1.00781      -0.0272996    1.30305      -0.000419594  -5.35644e-07    138993.00        0.0000000
  11008.150        1.00047        1.00047      -0.0340184    1.30393      -0.000410286   1.34223e-06    138235.00        0.0000000
  11025.740       0.993548       0.993548      -0.0407334    1.30498      -0.000412018  -8.39369e-07    137414.00        0.0000000
  11043.450       0.986318       0.986318      -0.0474942    1.30619      -0.000386117   3.81363e-07    136542.00        0.0000000
  11061.220       0.979183       0.979183      -0.0542779    1.30757      -0.000411413  -7.14074e-07    134533.00        0.0000000
  11079.040       0.971802       0.971802      -0.0610806    1.30912      -0.00039573   1.40028e-06    132550.00        0.0000000
  11097.000       0.964812       0.964812      -0.0679369    1.31085      -0.000410269  -8.38872e-07    132435.00        0.0000000
  11115.010       0.957531       0.957531      -0.0748122    1.31274      -0.0004125  -7.20494e-07    132743.00        0.0000000
  11133.080       0.949991       0.949991      -0.0817104    1.31481      -0.000409494   3.90354e-07    132263.00        0.0000000
  11151.280       0.942525       0.942525      -0.0886582    1.31707      -0.000391258   1.07952e-06    131328.00        0.0000000
  11169.410       0.935445       0.935445      -0.0955793    1.31948      -0.000392444  -1.04374e-08    130483.00        0.0000000
  11187.790       0.928263       0.928263      -0.102596        1.3221      -0.00038335  -1.91651e-07    129481.00        0.0000000
  11206.110       0.921041       0.921041      -0.10959        1.32489      -0.000414295   3.96059e-07    128504.00        0.0000000
  11224.550       0.913906       0.913906      -0.116629        1.32787      -0.000399092  -7.05705e-07    128189.00        0.0000000
  11243.120       0.906479       0.906479      -0.123718        1.33104      -0.000377431   1.17719e-06    127389.00        0.0000000
  11261.690       0.899459       0.899459      -0.130807        1.3344      -0.0003789  -4.79189e-07    126606.00        0.0000000
  11280.390       0.892223       0.892223      -0.137946        1.33795      -0.000381521   5.29677e-07    125537.00        0.0000000
  11299.150       0.88515       0.88515      -0.145107        1.3417      -0.000371707  -1.74943e-07    125212.00        0.0000000
  11318.040       0.877966       0.877966      -0.152319        1.34566      -0.00038024   1.08825e-06    124845.00        0.0000000
  11337.000       0.871146       0.871146      -0.159557        1.34981      -0.000356631  -8.94741e-07    123951.00        0.0000000
  11355.960       0.864004       0.864004      -0.166795        1.35415      -0.000376279   1.25161e-06    125788.00        0.0000000
  11365.490       0.860642       0.860642      -0.170433        1.3564      -0.00035282   2.46159e-06    124252.00        0.0000000